Folder: Indoor_solar_cells

File: indoordataset.csv
Lux,Donor,Acceptor,ratio,Voc,Jsc,FF,PCE,Solvent,Surface,Donor_HOMO,Donor_LUMO,Acceptor_HOMO,Acceptor_LUMO,Concentration
"AM 1,5G ",D18,FCC-Cl,"1  1,5",1.08,16.04,76,13.1,CF,0.059,5.43,3.46,5.73,3.71,7.5
1000 lux,D18,FCC-Cl,"1  1,5",0.955,123,79.8,29.4,CF,0.059,5.43,3.46,5.73,3.71,7.5
"AM 1,5G ",PM6,FCC-Cl,1  1,1.02,16.22,78.1,13,"CF + 0,5% DIO",0.059,5.45,3.65,5.73,3.71,10
1000 lux,PM6,FCC-Cl,1  1,0.895,122.4,81.1,27.9,"CF + 0,5% DIO",0.059,5.45,3.65,5.73,3.71,10
"AM 1,5G ",D18-Cl,F-BTA3,"1  1,2",1.23,11.6,64.8,9.24,CB,-,5.35,2.7,5.56,3.49,22
1000 lux,D18-Cl,F-BTA3,"1  1,2",1.08,95.5,72.2,24.7,CB,-,5.35,2.7,5.56,3.49,22
"AM 1,5G ",D18-Cl,F-BTA3:eC9-2Cl,"1  1  1,2",0.95,20.4,67.6,13.1,"CB + 0,5% DIO",-,5.35,2.7,5.6,4.1,22
1000 lux,D18-Cl,F-BTA3:eC9-2Cl,"1  1  1,2",0.86,120,79.6,27.2,"CB + 0,5% DIO",-,5.35,2.7,5.6,4.1,22
"AM 1,5G ",J52-Cl,BTA3,1  1,1.243,12.9,66.12,10.6,THF,0.05,5.39,3.45,5.49,3.73,18
1000 lux,J52-Cl,BTA3,1  1,1.07,96.82,77.4,26.66,THF,0.05,5.39,3.45,5.49,3.73,18
"AM 1,5G ",J52-Cl,BTA3:BTA1,"1  0,8  0,2",1.275,12.98,67.76,11.22,THF,0.05,5.39,3.45,5.5,3.75,18
1000 lux,J52-Cl,BTA3:BTA1,"1  0,8  0,2",1.12,96.65,80.27,28.84,THF,0.05,5.39,3.45,5.5,3.75,18
"AM 1,5G ",PM6 ,GS-ISO,"1  1,3",1.22,11.44,70.46,9.87,CF,0.04,5.45,3.65,5.51,3.69,16
1000 lux,PM6,GS-ISO,"1  1,3",1.06,102.3,71.8,25.61,CF,0.04,5.45,3.65,5.51,3.69,16
"AM 1,5G ",PM6 ,GS-ISO,"1  1,3",1.21,11.51,67.64,9.39,O-XY,0.04,5.45,3.65,5.51,3.69,25
1000 lux,PM6,GS-ISO,"1  1,3",1.08,104.8,69.76,25.84,O-XY,0.04,5.45,3.65,5.51,3.69,25
"AM 1,5G ",PM6 ,GS-ISO,"1  1,3",1.21,11.69,70.27,9.97,"O-XY + 0,5% DIO",0.04,5.45,3.65,5.51,3.69,25
1000 lux,PM6,GS-ISO,"1  1,3",1.08,102.8,71.7,26.65,"O-XY + 0,5% DIO",0.04,5.45,3.65,5.51,3.69,25
"AM 1,5G ",PM6,GS-ISO,"1  1,3",1.21,13.65,70.38,11.62,"O-XY + 0,5% DIO",1,5.45,3.65,5.51,3.69,23
1000 lux,PM6,GS-ISO,"1  1,3",1.09,101.51,80.36,29.15,"O-XY + 0,5% DIO",1,5.45,3.65,5.59,3.82,23
"AM 1,5G ",PM6,F-BTA3,1  1,1.2,11.34,66.7,9.08,O-XY,0.04,5.45,3.65,5.59,3.82,16
1000 lux,PM6,F-BTA3,1  1,1.062,82,70.8,20.35,O-XY,0.04,5.45,3.65,5.59,3.82,16
"AM 1,5G ",PM6,F-BTA3,1  1,1.204,11.5,69,9.55,O-XY + 15% DBCL (SA),0.04,5.45,3.65,5.59,3.82,16
1000 lux,PM6,F-BTA3,1  1,1.066,83,71.6,20.91,O-XY + 15% DBCL (SA),0.04,5.45,3.65,5.59,3.82,16
"AM 1,5G ",PM6,F-BTA3,1  1,1.19,11.49,65.6,8.97,(20%)CS2/O-XY + 15% DBCL,0.04,5.45,3.65,5.59,3.82,16
1000 lux,PM6,F-BTA3,1  1,1.058,83,71.2,20.63,(20%)CS2/O-XY + 15% DBCL,0.04,5.45,3.65,5.59,3.82,16
"AM 1,5G ",D18,Cl-BTA5,-,1.16,15.17,67.96,12,-,-,5.51,3.55,5.71,3.97,-
1000 lux,D18,Cl-BTA5,-,1.019,91.11,68.96,21.2,-,-,5.51,3.55,5.71,3.97,-
"AM 1,5G ",PM6,Y6-O,"1  1,2",0.94,22.87,77,16.48,CF + 2% CN,-,5.45,3.65,5.75,3.71,17.6
1010 lux,PM6,Y6-O,"1  1,2",0.83,147,76,30.13,CF + 2% CN,-,5.45,3.65,5.75,3.71,17.6
"AM 1,5G ",PB2,FCC-Cl,1  1,1.08,17.4,76.9,14.4,"CB + 0,3% DIO",-,5.48,3.42,5.73,3.71,-
1000 lux,PB2,FCC-Cl,1  1,0.92,123,79.8,29.1,"CB + 0,3% DIO",-,5.48,3.42,5.73,3.71,-
"AM 1,5G ",PB2,FCC-Cl,1  1,1.08,17.3,77,14.4,"CB + 0,3% DIO",-,5.48,3.42,5.73,3.71,-
1000 lux,PB2,FCC-Cl,1  1,0.926,126,80.7,30.4,"CB + 0,3% DIO",-,5.48,3.42,5.73,3.71,-
"AM 1,5G ",TPD-3F,FCC-Cl,"1  1,5",1.12,12.9,65.1,9.6,O-XY,0.16,5.62,3.73,5.73,3.71,20
1000 lux,TPD-3F,FCC-Cl,"1  1,5",0.95,107.2,69.7,20.1,O-XY,0.16,5.62,3.73,5.73,3.71,20
"AM 1,5G ",TPD-3F,FCC-Cl,"1  1,5",1.11,13.6,64,10.5,O-XY + 15%Tetralin,0.16,5.62,3.73,5.73,3.71,20
1000 lux,TPD-3F,FCC-Cl,"1  1,5",0.96,106,71,21.6,O-XY + 15%Tetralin,0.16,5.62,3.73,5.73,3.71,20
"AM 1,5G ",TPD-3F,FCC-Cl,"1  1,5",1.1,14.4,65,10.9,O-XY + 15%DPE,0.16,5.62,3.73,5.73,3.71,20
1000 lux,TPD-3F,FCC-Cl,"1  1,5",0.94,107,70,20.8,O-XY + 15%DPE,0.16,5.62,3.73,5.73,3.71,20
"AM 1,5G ",PM6,IT-4F,-,0.91,15.96,66.41,9.31,CB,0.04,5.45,3.65,5.66,4.14,-
1000 lux,PM6,IT-4F,-,0.66,118.2,68.06,19.05,CB,0.04,5.45,3.65,5.66,4.14,-
"AM 1,5G ",PM6,PC70BM,1  1,0.83,19.67,67.33,10.86,CB + 3% DIO,0.04,5.45,3.65,5.87,3.91,-
1000 lux,PM6,PC70BM,1  1,0.73,98.46,64.86,16.69,CB + 3% DIO,0.04,5.45,3.65,5.87,3.91,-
"AM 1,5G ",PM6,Y6,1  1,0.81,25.06,68.89,13.9,CB,0.04,5.45,3.65,5.6,4.1,-
500 lux,PM6,Y6,1  1,0.64,71.55,72.4,23.78,CB,0.04,5.45,3.65,5.6,4.1,-
"AM 1,5G ",PM6,Y6,"1  1,2",0.836,26,76.9,16.8,"CF + 0,5% CN",0.04,5.45,3.65,5.6,4.1,7.5
500 lux,PM6,Y6,"1  1,2",0.7,62.9,78.9,20.9,"CF + 0,5% CN",0.04,5.45,3.65,5.6,4.1,7.5
"AM 1,5G ",PB2,FCC-Cl,1  1,1.06,17.6,77,14.4,"CB + 0,5% DIO",0.04,5.48,3.42,5.73,3.71,10
500 lux,PB2,FCC-Cl,1  1,0.909,63.8,78.9,29,"CB + 0,5% DIO",0.04,5.48,3.42,5.73,3.71,10
"AM 1,5G ",PM6,IT-4F,1  1,0.872,20.4,68.7,12.2,CB + 1% DIO,1.07,5.45,3.65,5.66,4.14,10
1000 lux,PM6,IT-4F,1  1,0.712,113,78,20.8,CB + 1% DIO,1.07,5.45,3.65,5.66,4.14,10
"AM 1,5G ",PM6,ITCC,1  1,1.1,14.5,64.3,10.3,"CB + 0,5% DIO",1.07,5.45,3.65,5.47,3.76,10
1000 lux,PM6,ITCC,1  1,0.962,95.8,75.2,22,"CB + 0,5% DIO",1.07,5.45,3.65,5.47,3.76,10
"AM 1,5G ",PTQ10,IDIC,"1  1,5",0.97,16.6,65.8,10.6,CF,-,5.54,2.98,5.89,3.65,25
1000 lux,PTQ10,IDIC,"1  1,5",0.78,110,69.3,18.5,CF,-,5.54,2.98,5.89,3.65,25
"AM 1,5G ",PTQ10,O-IDFBR,"1  1,5",1.35,9.06,56.05,6.87,CB,0.8,5.54,2.98,5.75,3.7,20
560 lux,PTQ10,O-IDFBR,"1  1,5",1.21,57.7,58.5,22.6,CB,0.8,5.54,2.98,5.75,3.7,20
"AM 1,5G ",PBDB-T,BTA3,1  1,1.124,13.1,54.4,8.01,"CF + 0,5% CN",0.04,5.33,2.92,5.49,3.73,20
1000 lux,PBDB-T,BTA3,1  1,0.99,95.8,71.8,23.3,"CF + 0,5% CN",0.16,5.33,2.92,5.49,3.73,20
"AM 1,5G ",PM6,BTA3,1  1,1.276,7.6,55.2,5.35,"CF + 0,5% CN",0.04,5.45,3.65,5.49,3.73,20
1000 lux,PM6,BTA3,1  1,1.12,65,67.1,15.9,"CF + 0,5% CN",0.16,5.45,3.65,5.49,3.73,20
"AM 1,5G ",PB4,FTCC-Br,1  1,1.09,17.9,76.14,14.79,"CB + 0,5% DIO",0.06,5.55,3.48,5.59,3.82,20
1000 lux,PB4,FTCC-Br,1  1,0.967,119.87,82,31.09,"CB + 0,5% DIO",1,5.55,3.48,5.59,3.82,20
"AM 1,5G ",PB2,FTCC-Br,1  1,1.05,17.9,78.8,14.8,"CB + 0,5% DIO",0.06,5.48,3.42,5.59,3.82,20
1000 lux,PB2,FTCC-Br,1  1,0.943,123.8,81.1,30.2,"CB + 0,5% DIO",1,5.48,3.42,5.59,3.82,20
"AM 1,5G ",PB2,ITCC,1  1,1.08,15.7,65.4,11,"CB + 0,5% DIO",0.06,5.48,3.42,5.62,3.77,20
1000 lux,PB2,ITCC,1  1,0.951,109.3,76.6,25.4,"CB + 0,5% DIO",1,5.48,3.42,5.62,3.77,20
"AM 1,5G ",PM6,Y6,"1  1,2",0.822,25.2,73.2,15.3,"CF + 0,5% CN",0.045,5.45,3.65,5.6,4.1,16
1000 lux,PM6,Y6,"1  1,2",0.706,139.8,72.9,31.4,"CF + 0,5% CN",0.045,5.45,3.65,5.6,4.1,16
"AM 1,5G ",S2,LBT-DF,-,0.944,18.8,75.2,13.35,CF,0.059,5.58,3.73,5.82,4.01,-
1000 lux,S2,LBT-DF,-,0.802,126.3,75.9,24.2,CF,0.059,5.58,3.73,5.82,4.01,-
"AM 1,5G ",S2,LBT-SCl,-,0.997,18.45,72.3,13.3,CF,0.059,5.58,3.73,5.75,3.96,-
1000 lux,S2,LBT-SCl,-,0.864,125,74.1,25.1,CF,0.059,5.58,3.73,5.75,3.96,-
"AM 1,5G ",D18,FCC-Cl-C8,"1  1,5",1.07,16.15,76.08,13.17,CF,-,5.51,3.53,5.73,3.76,10
1000 lux,D18,FCC-Cl-C8,"1  1,5",0.947,110,79.3,28.4,CF,-,5.51,3.53,5.73,3.76,10
"AM 1,5G ",D18,FCC-Cl-4Ph,"1  1,5",1.1,15.87,75.44,13.12,CF,-,5.51,3.53,5.75,3.74,10
1000 lux,D18,FCC-Cl-4Ph,"1  1,5",0.972,110.5,79,29.3,CF,-,5.51,3.53,5.75,3.74,10
"AM 1,5G ",D18,FCC-Cl-6Ph,"1  1,5",1.13,13.49,61.21,9.32,CF,-,5.51,3.53,5.75,3.7,10
1000 lux,D18,FCC-Cl-6Ph,"1  1,5",0.996,94.2,69.8,22.6,CF,-,5.51,3.53,5.75,3.7,10
"AM 1,5G ",CD1,PBN-10,1  1,1.29,10.1,60.8,7.93,CF + 2% CN,0.08,5.28,2.91,5.81,3.42,6
1000 lux,CD1,PBN-10,1  1,1.14,105,65.4,21.7,CF + 2% CN,0.08,5.28,2.91,5.81,3.42,6
"AM 1,5G ",CD1,ITIC,1  1,0.91,16.39,58.3,8.69,CF,0.08,5.28,2.91,5.48,3.83,12
1000 lux,CD1,ITIC,1  1,0.77,107,67.5,15.4,CF,0.08,5.28,2.91,5.48,3.83,12
"AM 1,5G ",PTQ10,IDIC,"1  1,5",1,14,59,9.9,CF,0.0115,5.54,2.98,5.33,3.53,27.5
1200 lux,PTQ10,IDIC,"1  1,5",0.84,120,56,18,CF,0.0115,5.54,2.98,5.33,3.53,27.5
"AM 1,5G ",PTQ10,IDIC-Br,"1  1,5",0.92,16.3,65,10.8,CF,0.0115,5.54,2.98,5.9,4.07,27.5
1200 lux,PTQ10,IDIC-Br,"1  1,5",0.73,150,64,22,CF,0.0115,5.54,2.98,5.9,4.07,27.5
"AM 1,5G ",PTQ10,IDIC-S,"1  1,5",0.92,14.5,64,9.2,CF,0.0115,5.54,2.98,5.41,3.63,27.5

1200 lux,PTQ10,IDIC-S,"1  1,5",0.76,104,59,15,CF,0.0115,5.54,2.98,5.41,3.63,27.5

File: IndoorREF.xlsx - Feuil1.csv
1,,,,,,,,,,,,,,
,Donor,Acceptor,ratio,Voc (V),Jsc (mA.cm²) or (µA.cm²),FF (%),PCE (%),Toxic,Surface aera (cm2),Donor_HOMO(ev) ,Donor_LUMO(ev),Acceptor_HOMO(ev),Acceptor_LUMO(ev),Concentration (mg/ml)
,,,,,,,,,,,,,,
100000,D18,FCC-Cl,1.5,1.08,16.04,76,13.1,4,0.059,5.43,3.46,5.73,3.71,7.5
1000,D18,FCC-Cl,1.5,0.955,123,79.8,29.4,4,0.059,5.43,3.46,5.73,3.71,7.5
100000,PM6,FCC-Cl,1,1.02,16.22,78.1,13,4,0.059,5.45,3.65,5.73,3.71,10
1000,PM6,FCC-Cl,1,0.895,122.4,81.1,27.9,4,0.059,5.45,3.65,5.73,3.71,10
100000,D18-Cl,F-BTA3,1.2,1.23,11.6,64.8,9.24,3,-,5.35,2.7,5.56,3.49,22
1000,D18-Cl,F-BTA3,1.2,1.08,95.5,72.2,24.7,3,-,5.35,2.7,5.56,3.49,22
100000,D18-Cl,F-BTA3:eC9-2Cl,1.2,0.95,20.4,67.6,13.1,3,-,5.35,2.7,5.6,4.1,22
1000,D18-Cl,F-BTA3:eC9-2Cl,1.2,0.86,120,79.6,27.2,3,-,5.35,2.7,5.6,4.1,22
100000,J52-Cl,BTA3,1,1.243,12.9,66.12,10.6,2,0.05,5.39,3.45,5.49,3.73,18
1000,J52-Cl,BTA3,1,1.07,96.82,77.4,26.66,2,0.05,5.39,3.45,5.49,3.73,18
100000,J52-Cl,BTA3:BTA1,1,1.275,12.98,67.76,11.22,2,0.05,5.39,3.45,5.5,3.75,18
1000,J52-Cl,BTA3:BTA1,1,1.12,96.65,80.27,28.84,2,0.05,5.39,3.45,5.5,3.75,18
100000,PM6 ,GS-ISO,1.3,1.22,11.44,70.46,9.87,4,0.04,5.45,3.65,5.51,3.69,16
1000,PM6,GS-ISO,1.3,1.06,102.3,71.8,25.61,4,0.04,5.45,3.65,5.51,3.69,16
100000,PM6 ,GS-ISO,1.3,1.21,11.51,67.64,9.39,1,0.04,5.45,3.65,5.51,3.69,25
1000,PM6,GS-ISO,1.3,1.08,104.8,69.76,25.84,1,0.04,5.45,3.65,5.51,3.69,25
100000,PM6 ,GS-ISO,1.3,1.21,11.69,70.27,9.97,1,0.04,5.45,3.65,5.51,3.69,25
1000,PM6,GS-ISO,1.3,1.08,102.8,71.7,26.65,1,0.04,5.45,3.65,5.51,3.69,25
100000,PM6,GS-ISO,1.3,1.21,13.65,70.38,11.62,1,1,5.45,3.65,5.51,3.69,23
1000,PM6,GS-ISO,1.3,1.09,101.51,80.36,29.15,1,1,5.45,3.65,5.59,3.82,23
100000,PM6,F-BTA3,1,1.2,11.34,66.7,9.08,1,0.04,5.45,3.65,5.59,3.82,16
1000,PM6,F-BTA3,1,1.062,82,70.8,20.35,1,0.04,5.45,3.65,5.59,3.82,16
100000,PM6,F-BTA3,1,1.204,11.5,69,9.55,1,0.04,5.45,3.65,5.59,3.82,16
1000,PM6,F-BTA3,1,1.066,83,71.6,20.91,1,0.04,5.45,3.65,5.59,3.82,16
100000,PM6,F-BTA3,1,1.19,11.49,65.6,8.97,1,0.04,5.45,3.65,5.59,3.82,16
1000,PM6,F-BTA3,1,1.058,83,71.2,20.63,1,0.04,5.45,3.65,5.59,3.82,16
100000,D18,Cl-BTA5,-,1.16,15.17,67.96,12,-,-,5.51,3.55,5.71,3.97,-
1000,D18,Cl-BTA5,-,1.019,91.11,68.96,21.2,-,-,5.51,3.55,5.71,3.97,-
100000,PM6,Y6-O,1.2,0.94,22.87,77,16.48,4,-,5.45,3.65,5.75,3.71,17.6
1000,PM6,Y6-O,1.2,0.83,147,76,30.13,4,-,5.45,3.65,5.75,3.71,17.6
100000,PB2,FCC-Cl,1,1.08,17.4,76.9,14.4,3,-,5.48,3.42,5.73,3.71,-
1000,PB2,FCC-Cl,1,0.92,123,79.8,29.1,3,-,5.48,3.42,5.73,3.71,-
100000,PB2,FCC-Cl,1,1.08,17.3,77,14.4,3,-,5.48,3.42,5.73,3.71,-
1000,PB2,FCC-Cl,1,0.926,126,80.7,30.4,3,-,5.48,3.42,5.73,3.71,-
100000,TPD-3F,FCC-Cl,1.5,1.12,12.9,65.1,9.6,1,0.16,5.62,3.73,5.73,3.71,20
1000,TPD-3F,FCC-Cl,1.5,0.95,107.2,69.7,20.1,1,0.16,5.62,3.73,5.73,3.71,20
100000,TPD-3F,FCC-Cl,1.5,1.11,13.6,64,10.5,1,0.16,5.62,3.73,5.73,3.71,20
1000,TPD-3F,FCC-Cl,1.5,0.96,106,71,21.6,1,0.16,5.62,3.73,5.73,3.71,20
100000,TPD-3F,FCC-Cl,1.5,1.1,14.4,65,10.9,1,0.16,5.62,3.73,5.73,3.71,20
1000,TPD-3F,FCC-Cl,1.5,0.94,107,70,20.8,1,0.16,5.62,3.73,5.73,3.71,20
100000,PM6,IT-4F,-,0.91,15.96,66.41,9.31,3,0.04,5.45,3.65,5.66,4.14,-
1000,PM6,IT-4F,-,0.66,118.2,68.06,19.05,3,0.04,5.45,3.65,5.66,4.14,-
100000,PM6,PC70BM,1,0.83,19.67,67.33,10.86,3,0.04,5.45,3.65,5.87,3.91,-
1000,PM6,PC70BM,1,0.73,98.46,64.86,16.69,3,0.04,5.45,3.65,5.87,3.91,-
100000,PM6,Y6,1,0.81,25.06,68.89,13.9,3,0.04,5.45,3.65,5.6,4.1,-
1000,PM6,Y6,1,0.64,71.55,72.4,23.78,3,0.04,5.45,3.65,5.6,4.1,-
100000,PM6,Y6,1.2,0.836,26,76.9,16.8,4,0.04,5.45,3.65,5.6,4.1,7.5
1000,PM6,Y6,1.2,0.7,62.9,78.9,20.9,4,0.04,5.45,3.65,5.6,4.1,7.5
100000,PB2,FCC-Cl,1,1.06,17.6,77,14.4,3,0.04,5.48,3.42,5.73,3.71,10
1000,PB2,FCC-Cl,1,0.909,63.8,78.9,29,3,0.04,5.48,3.42,5.73,3.71,10
100000,PM6,IT-4F,1,0.872,20.4,68.7,12.2,3,1.07,5.45,3.65,5.66,4.14,10
1000,PM6,IT-4F,1,0.712,113,78,20.8,3,1.07,5.45,3.65,5.66,4.14,10
100000,PM6,ITCC,1,1.1,14.5,64.3,10.3,3,1.07,5.45,3.65,5.47,3.76,10
1000,PM6,ITCC,1,0.962,95.8,75.2,22,3,1.07,5.45,3.65,5.47,3.76,10
100000,PTQ10,IDIC,1.5,0.97,16.6,65.8,10.6,4,-,5.54,2.98,5.89,3.65,25
1000,PTQ10,IDIC,1.5,0.78,110,69.3,18.5,4,-,5.54,2.98,5.89,3.65,25
100000,PTQ10,O-IDFBR,1.5,1.35,9.06,56.05,6.87,3,0.8,5.54,2.98,5.75,3.7,20
560,PTQ10,O-IDFBR,1.5,1.21,57.7,58.5,22.6,3,0.8,5.54,2.98,5.75,3.7,20
100000,PBDB-T,BTA3,1,1.124,13.1,54.4,8.01,4,0.04,5.33,2.92,5.49,3.73,20
1000,PBDB-T,BTA3,1,0.99,95.8,71.8,23.3,4,0.16,5.33,2.92,5.49,3.73,20
100000,PM6,BTA3,1,1.276,7.6,55.2,5.35,4,0.04,5.45,3.65,5.49,3.73,20
1000,PM6,BTA3,1,1.12,65,67.1,15.9,4,0.16,5.45,3.65,5.49,3.73,20
100000,PB4,FTCC-Br,1,1.09,17.9,76.14,14.79,3,0.06,5.55,3.48,5.59,3.82,20
1000,PB4,FTCC-Br,1,0.967,119.87,82,31.09,3,1,5.55,3.48,5.59,3.82,20
100000,PB2,FTCC-Br,1,1.05,17.9,78.8,14.8,3,0.06,5.48,3.42,5.59,3.82,20
1000,PB2,FTCC-Br,1,0.943,123.8,81.1,30.2,3,1,5.48,3.42,5.59,3.82,20
100000,PB2,ITCC,1,1.08,15.7,65.4,11,3,0.06,5.48,3.42,5.62,3.77,20
1000,PB2,ITCC,1,0.951,109.3,76.6,25.4,3,1,5.48,3.42,5.62,3.77,20
100000,PM6,Y6,1.2,0.822,25.2,73.2,15.3,4,0.045,5.45,3.65,5.6,4.1,16
1000,PM6,Y6,1.2,0.706,139.8,72.9,31.4,4,0.045,5.45,3.65,5.6,4.1,16
100000,S2,LBT-DF,-,0.944,18.8,75.2,13.35,4,0.059,5.58,3.73,5.82,4.01,-
1000,S2,LBT-DF,-,0.802,126.3,75.9,24.2,4,0.059,5.58,3.73,5.82,4.01,-
100000,S2,LBT-SCl,-,0.997,18.45,72.3,13.3,4,0.059,5.58,3.73,5.75,3.96,-
1000,S2,LBT-SCl,-,0.864,125,74.1,25.1,4,0.059,5.58,3.73,5.75,3.96,-
100000,D18,FCC-Cl-C8,1.5,1.07,16.15,76.08,13.17,4,-,5.51,3.53,5.73,3.76,10
1000,D18,FCC-Cl-C8,1.5,0.947,110,79.3,28.4,4,-,5.51,3.53,5.73,3.76,10
100000,D18,FCC-Cl-4Ph,1.5,1.1,15.87,75.44,13.12,4,-,5.51,3.53,5.75,3.74,10
1000,D18,FCC-Cl-4Ph,1.5,0.972,110.5,79,29.3,4,-,5.51,3.53,5.75,3.74,10
100000,D18,FCC-Cl-6Ph,1.5,1.13,13.49,61.21,9.32,4,-,5.51,3.53,5.75,3.7,10
1000,D18,FCC-Cl-6Ph,1.5,0.996,94.2,69.8,22.6,4,-,5.51,3.53,5.75,3.7,10
100000,CD1,PBN-10,1,1.29,10.1,60.8,7.93,4,0.08,5.28,2.91,5.81,3.42,6
1000,CD1,PBN-10,1,1.14,105,65.4,21.7,4,0.08,5.28,2.91,5.81,3.42,6
100000,CD1,ITIC,1,0.91,16.39,58.3,8.69,4,0.08,5.28,2.91,5.48,3.83,12
1000,CD1,ITIC,1,0.77,107,67.5,15.4,4,0.08,5.28,2.91,5.48,3.83,12
100000,PTQ10,IDIC,1.5,1,14,59,9.9,4,0.0115,5.54,2.98,5.33,3.53,27.5
1200,PTQ10,IDIC,1.5,0.84,120,56,18,4,0.0115,5.54,2.98,5.33,3.53,27.5
100000,PTQ10,IDIC-Br,1.5,0.92,16.3,65,10.8,4,0.0115,5.54,2.98,5.9,4.07,27.5
1200,PTQ10,IDIC-Br,1.5,0.73,150,64,22,4,0.0115,5.54,2.98,5.9,4.07,27.5
100000,PTQ10,IDIC-S,1.5,0.92,14.5,64,9.2,4,0.0115,5.54,2.98,5.41,3.63,27.5
1200,PTQ10,IDIC-S,1.5,0.76,104,59,15,4,0.0115,5.54,2.98,5.41,3.63,27.5